aX,aY,aZ,gX,gY,gZ
-0.258,-2.29,-0.237,-123.06,-16.87,-280.56
-0.44,-2.187,-0.354,-100.1,-27.09,-366.45
-0.318,-1.664,0.391,22.61,-94.36,-399.91
-0.091,-1.304,0.675,22.75,-163.8,-424.13
-0.004,-0.746,0.558,-10.43,-215.53,-404.81
0.104,-0.261,-0.114,-6.16,-223.65,-326.34
0.222,0.111,-0.462,7.49,-195.86,-272.23
0.359,0.056,-0.581,-8.54,-153.58,-223.44
0.361,-0.075,-0.625,16.52,-124.67,-178.99
0.429,0.194,-0.294,61.74,-120.75,-115.99
0.582,-0.122,0.122,4.41,-131.32,-90.93
0.671,-0.514,0.017,38.99,-124.39,-96.67
0.798,-0.813,0.174,56.91,-82.11,-98.0
0.773,-0.779,-0.068,73.22,-71.68,-91.35
0.585,-0.866,-0.16,14.42,-54.81,-119.56
0.432,-1.345,-0.246,79.17,-53.2,-183.4
0.534,-0.793,-0.205,-11.48,-42.91,-196.0
0.621,0.105,-0.572,99.4,-26.11,-135.66
0.805,-0.726,0.25,-94.85,-22.96,-168.91
0.687,-0.784,-0.128,-28.42,-34.3,-178.57
0.64,-0.577,-0.641,98.14,-38.64,-167.51
0.699,-0.912,-0.835,106.89,-31.36,-172.41
0.726,-0.453,-0.571,77.0,-22.89,-173.46
0.638,-0.974,0.003,22.47,-26.18,-176.4
0.758,0.614,-0.283,49.7,-17.57,-110.39
0.751,-1.349,0.549,-46.9,-46.62,-191.8
0.638,-0.882,0.349,-28.77,-85.82,-202.86
1.011,1.457,-0.615,60.55,-55.09,-75.11
0.936,-0.082,-0.105,14.07,-63.21,-76.93
0.86,-0.924,-0.365,-34.23,-72.38,-105.49
0.873,-0.23,-0.481,-56.0,-65.59,-101.01
0.842,-0.067,-0.332,-77.98,-61.81,-93.03
0.836,-0.008,-0.326,-81.62,-57.05,-87.71
0.822,-0.052,-0.315,-83.09,-54.6,-85.33
0.797,0.008,-0.313,-84.14,-53.9,-77.56
0.792,0.026,-0.312,-70.49,-56.49,-62.58
0.825,0.015,-0.3,-72.59,-59.71,-52.08
0.849,-0.019,-0.314,-73.64,-64.12,-44.24
0.874,-0.042,-0.35,-83.58,-68.32,-37.66
0.885,-0.11,-0.406,-97.16,-72.45,-36.89
0.879,-0.122,-0.431,-111.09,-75.18,-37.73
0.857,-0.121,-0.473,-122.64,-78.05,-39.9
0.829,-0.112,-0.421,-130.97,-82.25,-51.94
0.807,-0.084,-0.451,-114.31,-93.73,-52.5
0.768,-0.171,-0.406,-76.44,-95.06,-54.88
0.803,-0.099,-0.486,-57.4,-91.63,-57.19
0.765,-0.137,-0.484,-22.33,-91.14,-62.3
0.743,-0.053,-0.546,-12.74,-86.66,-39.06
0.755,-0.002,-0.59,5.04,-81.76,-43.26
0.769,-0.019,-0.588,12.67,-79.73,-34.58
0.74,-0.047,-0.592,18.41,-78.26,-28.07
0.73,-0.054,-0.582,21.14,-74.76,-21.7
0.73,-0.082,-0.596,20.58,-70.98,-18.48
0.718,-0.124,-0.612,19.67,-66.78,-19.46
0.722,-0.156,-0.613,24.64,-63.0,-23.73
0.739,-0.182,-0.622,29.96,-59.43,-32.48
0.758,-0.184,-0.649,36.19,-55.86,-38.22
0.785,-0.188,-0.673,43.12,-53.48,-42.28
0.806,-0.189,-0.68,50.19,-52.85,-43.75
0.812,-0.18,-0.7,51.66,-54.11,-41.86
0.816,-0.179,-0.715,49.7,-55.16,-36.89
0.808,-0.177,-0.715,43.96,-55.3,-30.1
0.803,-0.184,-0.713,37.59,-54.18,-27.02
0.796,-0.191,-0.708,31.43,-52.29,-26.32
0.787,-0.203,-0.709,27.09,-49.91,-28.35
0.766,-0.223,-0.693,25.97,-47.81,-32.83
0.711,-0.216,-0.707,25.83,-43.05,-37.45
0.683,-0.201,-0.726,28.0,-36.96,-40.88
0.653,-0.189,-0.729,29.75,-29.82,-42.0
0.635,-0.174,-0.713,32.13,-23.45,-39.97
0.641,-0.178,-0.692,33.88,-20.44,-37.31
0.642,-0.187,-0.682,35.07,-19.81,-32.9
0.637,-0.191,-0.68,33.74,-19.25,-27.51
0.64,-0.208,-0.696,29.96,-17.08,-22.4
0.649,-0.241,-0.684,25.34,-15.47,-19.04
0.655,-0.268,-0.662,18.97,-14.0,-17.71
0.655,-0.293,-0.664,12.53,-13.93,-19.18
0.66,-0.305,-0.665,12.6,-14.28,-22.82
0.659,-0.302,-0.659,10.57,-14.07,-26.53
0.653,-0.271,-0.664,9.45,-13.02,-28.84
0.661,-0.26,-0.672,10.29,-10.36,-28.84
0.662,-0.244,-0.666,11.41,-7.98,-27.09
0.662,-0.227,-0.657,12.46,-6.58,-22.96
0.673,-0.221,-0.649,12.53,-6.44,-18.27
0.684,-0.23,-0.644,12.04,-7.42,-13.86
0.699,-0.24,-0.639,10.43,-9.1,-10.57
0.713,-0.256,-0.651,8.4,-10.71,-8.68
0.718,-0.264,-0.651,5.46,-11.9,-8.26
0.72,-0.28,-0.657,2.8,-11.9,-8.89
0.71,-0.279,-0.662,1.96,-12.18,-10.15
0.704,-0.265,-0.653,0.56,-12.32,-10.71
0.709,-0.255,-0.676,-0.49,-8.96,-10.71
0.724,-0.261,-0.652,-0.35,-6.86,-11.41
0.716,-0.255,-0.644,0.56,-5.74,-10.36
0.717,-0.244,-0.66,1.4,-2.8,-7.28
0.733,-0.25,-0.653,2.87,0.14,-4.9
0.74,-0.269,-0.625,5.32,0.84,-4.27
0.749,-0.293,-0.613,6.51,1.26,-6.09
0.772,-0.322,-0.617,5.53,2.52,-11.34
0.789,-0.329,-0.619,4.9,4.48,-17.92
0.792,-0.327,-0.626,5.11,7.77,-23.73
0.784,-0.316,-0.632,5.81,10.08,-27.72
0.773,-0.292,-0.623,7.42,11.41,-28.56
0.767,-0.274,-0.619,9.03,11.83,-27.09
0.769,-0.257,-0.613,9.17,11.27,-23.17
0.779,-0.246,-0.607,8.26,9.8,-16.8
0.779,-0.243,-0.603,7.77,7.21,-11.97
0.784,-0.247,-0.594,7.07,4.9,-8.61
0.795,-0.261,-0.6,5.25,4.13,-7.63
0.797,-0.268,-0.609,2.94,3.5,-8.05
0.792,-0.264,-0.616,-0.56,2.66,-9.87
0.784,-0.274,-0.638,-1.89,3.71,-13.37
0.776,-0.277,-0.63,-2.24,6.3,-17.15
0.771,-0.268,-0.636,-2.38,10.15,-20.16
0.769,-0.259,-0.633,-0.21,12.81,-20.51
0.767,-0.248,-0.616,4.27,14.07,-18.41
0.777,-0.249,-0.606,7.42,12.53,-15.75
0.778,-0.233,-0.603,8.68,9.73,-9.87
0.798,-0.194,-0.616,8.96,7.91,-6.79
1.165,0.235,-1.165,34.58,-15.61,116.9
1.084,0.31,-1.238,30.03,-19.74,113.19
1.042,0.376,-1.407,37.31,-28.21,106.75
0.97,0.443,-1.439,42.7,-47.6,98.28
0.918,0.63,-1.729,40.32,-55.09,95.06
0.878,0.737,-1.935,35.07,-57.96,93.73
0.788,0.82,-2.201,21.21,-56.98,91.14
0.702,0.911,-2.194,3.5,-48.16,89.81
0.604,0.99,-2.263,-7.14,-36.96,80.22
0.428,1.057,-2.261,-7.98,-26.04,61.95
0.241,1.158,-2.284,-12.39,-7.77,43.19
0.058,1.249,-2.291,-18.2,17.57,3.71
-0.201,1.458,-2.233,-24.43,48.3,3.22
-0.467,1.632,-2.035,-39.69,82.32,17.57
-0.678,1.732,-1.764,-40.53,109.69,52.36
-0.951,1.743,-1.471,-42.07,129.36,100.45
-1.173,1.789,-1.178,-37.94,145.53,175.77
-1.393,1.688,-0.65,-24.36,146.23,252.49
-1.566,1.283,-0.214,-13.65,134.33,312.13
-1.617,0.609,0.136,5.95,125.44,349.51
-1.729,-0.124,0.539,23.17,112.77,360.29
-1.853,-0.988,0.973,38.36,98.28,341.18
-1.917,-1.914,1.444,36.61,85.61,304.5
-2.12,-2.593,1.923,21.35,77.98,273.98
-2.45,-2.856,2.309,6.65,77.84,290.43
-2.588,-3.108,2.626,-0.63,71.75,413.98
-2.542,-3.279,2.854,6.51,28.42,576.1
-2.186,-3.557,2.794,9.1,-87.43,776.72
-1.32,-4.207,2.369,45.78,-274.89,936.6
-0.5,-5.476,1.552,126.35,-455.07,978.32
0.061,-6.584,0.083,140.91,-509.53,853.37
0.346,-7.213,-2.015,54.39,-162.26,507.08
1.125,-6.092,-2.9,4.06,205.38,184.66
1.854,-4.754,-1.942,-112.07,455.14,-79.45
2.057,-4.248,-0.56,-75.6,550.2,-307.23
2.107,-3.262,0.763,1.68,507.08,-452.76
1.685,-1.886,1.258,69.44,382.13,-512.68
0.93,-0.805,1.288,159.88,247.03,-462.63
0.591,0.629,1.935,141.89,72.45,-302.05
0.246,0.765,0.912,239.68,-88.9,-118.3
-0.059,0.532,0.902,160.23,-218.47,4.27
-0.354,0.057,0.033,150.85,-282.94,88.27
-0.401,-0.387,-0.383,139.79,-276.85,124.25
-0.696,-0.937,-0.821,129.92,-210.14,102.55
-0.67,-1.388,-0.93,94.08,-146.72,46.76
-0.61,-1.697,-0.997,60.76,-84.84,-21.49
-0.522,-1.84,-1.042,28.0,-30.1,-101.22
-0.394,-1.748,-1.016,11.9,10.15,-143.99
-0.296,-1.567,-0.782,2.94,40.88,-165.69
-0.168,-1.369,-0.74,-2.8,56.7,-169.05
-0.129,-1.183,-0.57,-15.47,61.67,-164.43
-0.061,-0.996,-0.393,-11.27,61.81,-156.45
0.2,-0.793,-0.194,-16.59,49.42,-123.9
0.281,-0.807,0.028,-21.84,32.13,-109.97
0.333,-0.807,0.135,-16.87,13.02,-96.88
0.453,-0.845,0.185,-3.22,-2.59,-83.86
0.477,-0.992,0.201,10.92,-11.69,-75.04
0.453,-1.145,0.176,17.08,-15.47,-74.76
0.479,-1.267,0.183,19.25,-19.53,-81.34
0.474,-1.347,0.207,30.52,-25.34,-88.2
0.429,-1.385,0.24,34.16,-33.67,-92.68
0.383,-1.405,0.234,34.65,-45.15,-94.85
0.329,-1.406,0.192,31.85,-56.56,-92.26
0.257,-1.409,0.142,22.4,-63.77,-82.53
0.187,-1.399,0.1,7.35,-67.34,-78.75
0.15,-1.386,0.103,-4.69,-67.83,-79.73
0.158,-1.369,0.181,-13.37,-67.41,-82.6
0.188,-1.346,0.292,-17.36,-69.3,-88.2
0.198,-1.34,0.379,-18.34,-76.3,-99.4
0.248,-1.39,0.416,-19.39,-89.04,-113.19
0.31,-1.386,0.366,-22.05,-101.08,-128.45
0.278,-1.28,0.316,-30.52,-108.99,-135.87
0.205,-1.197,0.298,-39.41,-114.45,-137.62
0.155,-1.074,0.255,-46.06,-117.46,-134.19
0.113,-0.991,0.367,-54.39,-117.95,-129.43
0.109,-0.95,0.294,-59.85,-122.99,-123.62
0.113,-0.92,0.289,-63.21,-130.34,-119.0
0.126,-0.885,0.288,-67.41,-138.25,-117.11
0.135,-0.885,0.226,-70.21,-145.04,-118.58
0.151,-0.855,0.121,-68.81,-152.18,-123.41
0.155,-0.772,-0.043,-62.09,-157.08,-130.41
0.145,-0.689,-0.186,-60.06,-157.15,-136.64
0.152,-0.629,-0.296,-57.54,-152.25,-141.47
0.166,-0.582,-0.346,-58.31,-147.0,-145.04
0.199,-0.549,-0.39,-61.95,-143.43,-147.77
0.241,-0.492,-0.457,-67.2,-141.54,-148.54
0.254,-0.438,-0.49,-72.87,-141.12,-147.63
0.233,-0.406,-0.529,-75.11,-145.88,-147.28
0.234,-0.352,-0.59,-72.87,-150.22,-146.93
0.205,-0.303,-0.648,-70.28,-154.84,-149.66
0.159,-0.245,-0.776,-66.29,-155.89,-153.09
0.036,-0.01,-1.0,-59.71,-141.12,-147.35
-0.057,0.079,-1.211,-66.71,-109.97,-129.99
-0.026,0.2,-1.389,-75.46,-74.06,-106.68
0.208,0.301,-1.432,-81.41,-41.37,-80.78
0.239,0.349,-1.326,-86.94,-34.09,-56.21
0.351,0.363,-1.231,-87.36,-37.17,-35.98
0.413,0.388,-1.185,-85.54,-44.45,-23.17
0.447,0.412,-1.178,-82.74,-51.31,-15.82
0.481,0.413,-1.194,-78.68,-54.88,-16.31
0.498,0.383,-1.21,-72.38,-55.3,-23.03
0.528,0.319,-1.224,-61.11,-56.0,-36.89
0.481,0.289,-1.248,-44.45,-56.91,-53.97
0.395,0.265,-1.291,-28.07,-55.23,-67.9
0.319,0.265,-1.364,-9.45,-54.46,-73.36
0.193,0.263,-1.446,12.32,-53.83,-70.14
0.073,0.241,-1.529,29.75,-51.24,-60.97
0.027,0.089,-1.578,43.68,-48.44,-50.54
0.022,-0.032,-1.606,48.02,-46.06,-51.45
0.023,-0.125,-1.628,41.93,-40.95,-59.29
0.044,-0.16,-1.619,30.87,-32.69,-69.44
0.089,-0.159,-1.52,20.79,-16.31,-78.05
0.159,-0.144,-1.399,12.53,-1.82,-83.09
0.25,-0.112,-1.243,9.17,9.87,-83.93
0.332,-0.087,-1.072,9.73,15.05,-80.78
0.383,-0.056,-0.92,15.96,13.51,-66.22
0.427,-0.059,-0.818,25.13,4.13,-46.83
0.409,-0.055,-0.824,34.58,-8.47,-22.75
0.411,-0.122,-0.863,35.35,-22.54,-1.26
-0.929,-1.044,0.784,-35.35,74.34,63.28
-1.238,-1.205,1.138,-39.41,74.83,56.21
-1.261,-1.276,1.286,-33.95,87.43,66.57
-1.452,-1.247,1.328,-23.66,111.37,105.14
-1.512,-1.246,1.358,-23.03,130.41,179.76
-1.338,-1.309,1.467,-11.9,115.08,284.9
-1.133,-1.593,1.487,18.69,64.96,397.18
-0.858,-2.049,1.269,87.92,0.63,507.85
-0.505,-2.852,0.777,134.75,-40.67,519.75
-0.141,-3.565,0.119,158.2,-26.32,449.12
0.328,-4.023,-0.568,135.17,51.03,311.36
0.838,-3.91,-0.883,77.56,161.42,158.76
1.328,-3.644,-0.716,45.64,241.15,18.27
1.748,-3.21,-0.212,34.58,263.27,-88.34
1.962,-2.644,0.246,33.88,236.53,-154.0
1.797,-2.092,0.707,23.52,175.0,-189.84
1.493,-1.54,0.8,3.92,60.97,-194.04
1.061,-1.009,0.712,-9.03,-25.76,-164.22
0.644,-0.655,0.476,-6.72,-93.8,-113.33
0.243,-0.543,0.159,0.42,-136.99,-64.4
-0.073,-0.721,-0.141,8.12,-155.4,-31.01
-0.347,-0.779,-0.422,16.66,-153.37,-29.75
-0.514,-0.888,-0.67,20.09,-129.71,-35.98
-0.68,-0.961,-0.875,16.1,-88.48,-42.56
-0.716,-0.983,-0.958,2.17,-28.49,-45.57
-0.579,-0.983,-0.843,-7.14,-1.89,-45.78
-0.429,-0.989,-0.665,-13.09,8.82,-44.24
-0.282,-0.938,-0.504,-20.58,11.2,-40.18
-0.14,-0.874,-0.382,-23.17,8.05,-36.19
-0.042,-0.84,-0.291,-21.7,2.66,-34.65
0.067,-0.83,-0.228,-15.75,-2.87,-33.95
0.131,-0.845,-0.218,-5.81,-5.95,-32.97
0.181,-0.897,-0.228,6.58,-6.58,-31.78
0.205,-0.977,-0.279,35.7,-3.22,-28.21
0.26,-1.073,-0.298,25.27,0.98,-26.67
0.273,-1.232,-0.294,24.08,3.36,-29.26
0.292,-1.341,-0.284,17.29,4.13,-34.65
0.352,-1.383,-0.239,10.85,-0.63,-40.95
0.363,-1.403,-0.191,8.54,-9.31,-49.42
0.324,-1.407,-0.152,7.14,-15.19,-60.55
0.302,-1.379,-0.121,5.32,-16.31,-69.3
0.254,-1.34,-0.113,2.45,-16.38,-74.34
0.218,-1.288,-0.1,-2.1,-16.94,-76.23
0.193,-1.256,-0.045,-6.3,-19.67,-74.06
0.142,-1.247,-0.008,-8.47,-21.7,-68.67
0.117,-1.223,0.025,-10.92,-22.12,-62.09
0.125,-1.232,0.103,-12.46,-25.2,-58.1
0.128,-1.261,0.194,-12.32,-37.87,-57.12
0.128,-1.289,0.218,-12.25,-48.09,-56.28
0.009,-1.34,0.142,-13.3,-49.98,-52.29
-0.047,-1.374,0.064,-17.78,-44.94,-49.21
0.022,-1.409,0.039,-26.32,-44.24,-56.56
0.071,-1.468,0.06,-35.21,-53.34,-68.39
0.082,-1.481,0.045,-44.52,-64.75,-80.78
0.041,-1.408,-0.004,-54.95,-70.21,-89.11
-0.012,-1.347,0.036,-68.32,-70.7,-96.39
-0.075,-1.282,0.098,-77.14,-70.84,-98.91
-0.105,-1.186,0.143,-83.3,-73.01,-98.0
-0.135,-1.109,0.182,-85.33,-75.81,-95.69
-0.137,-1.047,0.191,-82.39,-78.12,-96.11
-0.126,-0.992,0.142,-74.62,-79.87,-98.35
-0.047,-0.898,0.032,-66.99,-78.75,-98.91
-0.023,-0.851,-0.013,-61.88,-77.63,-99.68
0.031,-0.835,-0.069,-57.47,-76.93,-99.05
0.081,-0.811,-0.077,-60.83,-77.42,-96.46
0.16,-0.91,-0.059,-69.65,-85.19,-96.53
0.271,-0.892,-0.12,-80.43,-95.69,-101.99
0.237,-0.85,-0.187,-93.24,-101.36,-109.76
0.158,-0.845,-0.227,-101.29,-100.8,-116.62
0.11,-0.795,-0.327,-99.96,-96.67,-125.79
0.103,-0.695,-0.415,-94.36,-90.72,-133.77
0.082,-0.598,-0.485,-88.83,-87.71,-138.32
0.113,-0.527,-0.551,-82.53,-89.18,-139.79
0.13,-0.457,-0.613,-80.92,-91.49,-138.74
0.146,-0.411,-0.635,-82.6,-93.17,-137.83
0.167,-0.387,-0.671,-83.79,-97.72,-140.07
0.217,-0.313,-0.718,-87.78,-101.36,-145.04
0.217,-0.217,-0.729,-92.12,-99.89,-149.66
0.168,-0.176,-0.787,-72.24,-92.4,-157.22
0.133,-0.066,-0.88,-76.65,-81.9,-164.71
0.108,0.033,-0.974,-65.94,-70.35,-171.36
0.09,0.111,-1.047,-53.97,-58.52,-174.3
0.057,0.171,-1.139,-41.02,-45.29,-171.15
0.072,0.216,-1.189,-27.09,-38.92,-163.17
0.038,0.237,-1.254,-14.42,-34.51,-152.04
0.002,0.256,-1.326,-5.74,-29.54,-140.56
0.005,0.264,-1.378,16.94,-25.97,-125.72
0.031,0.249,-1.392,4.83,-24.64,-116.2
0.058,0.215,-1.419,10.15,-24.57,-111.3
0.051,0.168,-1.459,15.54,-25.2,-110.6
0.051,0.106,-1.49,22.75,-28.0,-112.56
0.034,0.045,-1.514,33.11,-34.02,-115.85
0.027,0.005,-1.546,42.07,-40.67,-119.77
0.025,-0.021,-1.54,44.52,-46.76,-121.94
0.026,-0.036,-1.502,42.84,-48.79,-118.16
0.046,-0.037,-1.466,38.5,-48.58,-108.01
0.061,-0.031,-1.439,31.78,-43.47,-91.7
0.078,-0.018,-1.433,19.04,-30.38,-61.39
0.13,-0.025,-1.382,6.93,-13.93,-37.1
0.186,-0.05,-1.336,-4.2,2.38,-13.44
0.209,-0.037,-1.316,-11.9,19.46,8.4
0.288,-0.046,-1.188,-19.88,28.77,25.76
0.424,-0.116,-0.963,-23.31,23.8,36.19
0.484,-0.204,-0.857,-20.58,12.81,40.32
0.508,-0.279,-0.814,-13.37,2.24,40.39
0.518,-0.342,-0.833,-6.02,-3.78,37.87
0.517,-0.4,-0.867,17.08,-5.18,32.9
0.519,-0.465,-0.873,5.46,-4.41,29.47
0.503,-0.489,-0.887,8.47,-2.17,27.44
0.505,-0.49,-0.891,10.08,-0.21,26.46
0.512,-0.503,-0.872,10.29,0.42,24.71
0.512,-0.522,-0.851,9.59,-1.54,21.0
0.52,-0.531,-0.834,8.19,-4.62,16.17
0.496,-0.532,-0.838,6.09,-6.51,10.71
0.473,-0.522,-0.848,4.55,-4.69,6.37
0.457,-0.506,-0.842,2.94,-1.82,4.06
0.456,-0.503,-0.827,1.33,-0.28,2.66
0.459,-0.496,-0.812,-0.56,0.0,2.59
0.461,-0.483,-0.799,-4.06,-0.49,4.9
-0.661,-1.139,0.857,-17.43,163.94,99.82
-0.642,-1.196,1.089,-10.57,147.84,109.13
-0.665,-1.232,1.235,-2.94,125.93,129.5
-0.675,-1.34,1.307,13.65,97.23,159.88
-0.685,-1.443,1.154,35.35,50.26,199.78
-0.605,-1.562,1.09,56.84,9.8,243.6
-0.456,-1.76,0.935,81.06,-39.97,282.59
-0.287,-2.028,0.706,110.39,-88.27,304.78
-0.256,-2.298,0.366,130.2,-119.98,305.34
-0.191,-2.568,0.039,140.14,-128.1,280.49
-0.155,-2.746,-0.284,137.76,-105.63,213.29
-0.16,-2.794,-0.598,107.94,-51.45,150.01
-0.118,-2.669,-0.838,66.64,21.84,88.48
0.045,-2.451,-0.869,34.79,89.04,37.8
0.207,-2.195,-0.673,14.91,131.67,0.49
0.423,-1.904,-0.356,-0.98,140.98,-22.82
0.583,-1.628,-0.066,-6.93,120.75,-36.05
0.662,-1.398,0.107,-9.66,76.16,-40.11
0.64,-1.216,0.123,-7.63,45.08,-37.94
0.558,-1.061,0.078,-5.95,19.25,-31.43
0.466,-0.946,0.003,-4.9,-2.24,-22.82
0.377,-0.922,-0.05,-0.84,-20.51,-16.73
0.278,-0.96,-0.117,4.55,-35.35,-15.4
0.175,-1.002,-0.22,6.23,-45.29,-19.32
0.072,-1.023,-0.337,10.15,-51.17,-24.5
-0.064,-1.029,-0.451,13.23,-49.42,-29.47
-0.207,-1.018,-0.582,11.97,-32.9,-31.64
-0.263,-0.984,-0.625,2.8,-15.61,-30.03
-0.246,-0.958,-0.569,-12.46,-4.06,-27.72
-0.171,-0.924,-0.507,-19.25,0.21,-26.74
-0.112,-0.899,-0.431,-18.27,2.8,-26.39
-0.043,-0.869,-0.349,-13.23,0.98,-24.78
0.027,-0.838,-0.322,-6.93,-1.26,-21.35
0.063,-0.861,-0.317,-2.38,-3.08,-17.78
0.098,-0.906,-0.332,1.26,-4.69,-14.63
0.116,-0.983,-0.355,7.56,-6.23,-10.29
0.134,-1.051,-0.386,11.2,-7.14,-7.98
0.148,-1.151,-0.412,12.81,-6.58,-6.3
0.14,-1.231,-0.454,11.83,-1.96,-5.39
0.184,-1.312,-0.452,9.8,1.68,-9.31
0.218,-1.405,-0.416,10.15,3.99,-19.88
0.182,-1.495,-0.405,9.17,11.83,-31.78
0.192,-1.549,-0.367,5.04,22.19,-45.71
0.226,-1.569,-0.257,4.41,28.14,-62.93
0.214,-1.565,-0.122,5.53,30.52,-80.57
0.224,-1.507,-0.017,7.49,28.07,-102.48
0.227,-1.431,0.066,7.98,22.47,-113.12
0.203,-1.359,0.124,8.12,15.75,-115.22
0.172,-1.299,0.162,6.3,6.65,-109.83
0.107,-1.247,0.162,1.47,-2.87,-97.3
0.071,-1.216,0.184,-5.53,-12.39,-78.82
0.0,-1.238,0.199,-10.08,-17.99,-60.13
-0.015,-1.341,0.273,-10.92,-26.67,-50.61
0.038,-1.453,0.298,-10.15,-36.68,-52.92
0.047,-1.577,0.25,-14.98,-44.87,-64.96
0.037,-1.654,0.226,-24.78,-51.59,-89.81
0.041,-1.698,0.222,-41.86,-59.29,-109.62
0.029,-1.623,0.172,-53.55,-66.08,-124.88
-0.02,-1.475,0.131,-66.43,-68.88,-134.89
-0.067,-1.325,0.165,-79.59,-72.38,-138.74
-0.086,-1.199,0.202,-85.05,-75.81,-136.29
-0.103,-1.085,0.183,-86.24,-81.34,-132.37
-0.103,-0.94,0.121,-80.92,-85.96,-126.56
-0.12,-0.886,0.078,-78.12,-88.76,-125.09
-0.12,-0.872,-0.022,-71.26,-90.16,-126.14
-0.099,-0.85,-0.218,-68.25,-86.8,-128.31
-0.077,-0.811,-0.326,-72.8,-82.25,-130.76
-0.016,-0.775,-0.402,-78.89,-79.17,-133.7
0.048,-0.652,-0.427,-85.68,-76.09,-133.63
0.092,-0.581,-0.364,-98.91,-75.18,-133.35
0.129,-0.479,-0.341,-106.4,-76.16,-128.87
0.2,-0.433,-0.32,-104.23,-85.4,-120.82
0.248,-0.376,-0.4,-96.46,-90.23,-119.98
0.148,-0.357,-0.505,-87.85,-92.4,-120.96
0.162,-0.355,-0.646,-74.06,-91.14,-120.54
0.148,-0.31,-0.802,-59.43,-85.89,-119.35
0.107,-0.268,-0.967,-51.87,-73.29,-116.2
0.048,-0.258,-1.044,-46.41,-60.2,-109.76
0.083,-0.243,-1.09,-40.46,-47.04,-100.87
0.149,-0.246,-1.098,-39.2,-38.22,-97.09
0.232,-0.234,-1.089,-50.12,-34.02,-100.03
0.278,-0.183,-1.13,-53.2,-30.87,-103.67
0.29,-0.101,-1.089,-55.93,-29.05,-106.75
0.263,-0.038,-1.091,-55.16,-29.89,-107.66
0.234,0.014,-1.145,-47.46,-30.45,-105.84
0.191,0.061,-1.219,-37.38,-29.96,-102.9
0.147,0.095,-1.297,-25.55,-28.98,-97.65
0.11,0.103,-1.385,-8.75,-25.48,-92.75
0.073,0.108,-1.47,-1.05,-17.64,-87.22
0.044,0.101,-1.494,3.15,-7.77,-78.68
0.06,0.043,-1.449,7.0,-0.49,-69.16
0.154,0.002,-1.395,9.24,4.48,-61.67
0.218,-0.033,-1.319,5.46,5.25,-56.56
0.311,-0.092,-1.231,-0.98,3.78,-51.87
0.391,-0.146,-1.139,-9.17,0.49,-47.53
0.464,-0.19,-1.068,-17.15,-4.55,-45.01
0.507,-0.221,-0.994,-24.43,-12.39,-42.49
0.528,-0.284,-0.967,-23.87,-21.0,-40.81
0.47,-0.302,-1.001,-22.05,-21.56,-37.66
0.398,-0.321,-1.056,-22.12,-9.52,-35.35
0.382,-0.35,-1.05,-20.86,-0.35,-36.26
0.403,-0.356,-1.029,-19.39,4.34,-40.04
0.415,-0.335,-0.992,-21.7,6.16,-46.76
0.424,-0.284,-0.958,-23.1,6.44,-48.79
0.42,-0.23,-0.906,-24.29,4.83,-46.76
0.408,-0.192,-0.872,-22.4,1.75,-42.98
0.405,-0.152,-0.856,-19.74,-1.47,-37.87
0.387,-0.131,-0.839,-16.03,-3.99,-29.96
0.367,-0.124,-0.842,-9.73,-5.46,-20.51
0.349,-0.129,-0.864,-3.43,-5.81,-9.73
0.351,-0.181,-0.873,0.84,-6.23,-4.27
0.361,-0.248,-0.893,3.64,-7.07,-2.24
0.376,-0.308,-0.923,2.73,-6.23,-3.57
0.383,-0.354,-0.935,-1.26,-3.08,-5.53
0.385,-0.374,-0.932,-4.83,-0.84,-7.49
0.393,-0.372,-0.916,-8.47,0.84,-8.96
0.403,-0.356,-0.889,-12.25,2.45,-7.14
0.414,-0.342,-0.86,-12.18,3.36,-4.06
0.421,-0.323,-0.828,-10.92,2.45,-1.4
-1.192,-0.987,0.74,25.2,151.9,123.34
-1.195,-1.325,1.151,14.07,165.83,129.22
-1.178,-1.555,1.567,14.07,161.7,145.18
-1.235,-1.701,1.837,23.66,141.26,173.53
-1.237,-1.758,1.922,53.27,105.14,225.26
-1.161,-1.824,1.832,88.13,51.45,300.3
-0.99,-2.054,1.613,137.27,-20.86,380.1
-0.629,-2.471,1.174,190.05,-123.76,430.57
-0.472,-3.016,0.717,237.93,-166.53,432.81
-0.248,-3.571,0.171,256.69,-153.58,374.43
-0.164,-3.917,-0.552,238.21,-71.47,272.16
0.064,-3.738,-1.15,127.47,61.18,129.15
0.473,-3.283,-1.18,43.33,175.0,34.93
0.827,-2.975,-0.653,9.59,218.89,-34.93
1.165,-2.522,-0.061,-5.04,202.3,-71.89
1.305,-2.083,0.35,-10.78,150.15,-94.29
1.202,-1.647,0.508,-25.76,86.1,-106.75
1.033,-1.201,0.482,-37.59,8.61,-102.97
0.683,-0.881,0.343,-39.97,-32.55,-87.43
0.41,-0.725,0.194,-32.48,-62.72,-70.7
0.133,-0.69,0.01,-21.49,-82.04,-59.85
-0.112,-0.701,-0.175,-9.8,-90.44,-53.62
-0.321,-0.719,-0.348,-2.31,-89.95,-49.0
-0.503,-0.71,-0.534,4.13,-77.56,-40.46
-0.615,-0.687,-0.658,-0.07,-44.03,-28.42
-0.583,-0.664,-0.672,-9.73,-18.13,-14.14
-0.483,-0.657,-0.57,-33.95,-0.98,2.17
-0.347,-0.68,-0.44,-17.36,7.28,10.43
-0.209,-0.68,-0.32,-16.45,11.69,17.22
-0.072,-0.695,-0.23,-11.41,10.85,21.35
0.033,-0.738,-0.157,-3.71,1.4,24.57
0.117,-0.826,-0.128,5.95,-9.45,27.65
0.157,-0.919,-0.178,12.25,-18.48,28.56
0.168,-1.021,-0.245,12.74,-23.8,24.43
0.18,-1.1,-0.322,12.46,-25.9,18.34
0.171,-1.163,-0.379,12.88,-24.78,4.69
0.147,-1.239,-0.429,12.74,-19.74,-9.45
0.137,-1.263,-0.46,14.07,-11.69,-21.91
0.147,-1.27,-0.447,15.33,-3.92,-31.71
0.132,-1.292,-0.432,15.89,4.13,-39.76
0.129,-1.307,-0.42,13.37,8.68,-44.24
0.123,-1.319,-0.407,7.35,13.93,-45.92
0.156,-1.333,-0.357,2.03,15.68,-49.07
0.181,-1.333,-0.274,-1.75,13.37,-55.3
0.208,-1.323,-0.191,-2.1,10.08,-66.71
0.235,-1.305,-0.122,-0.7,6.58,-77.21
0.239,-1.289,-0.066,1.33,2.17,-86.59
0.231,-1.274,-0.029,2.03,-1.96,-92.75
0.17,-1.29,-0.072,-0.49,-4.13,-91.0
0.12,-1.303,-0.075,-7.84,-4.9,-84.14
0.138,-1.338,-0.031,-18.13,-10.36,-78.54
0.12,-1.368,0.005,-30.17,-18.13,-74.48
0.094,-1.372,0.037,-38.5,-26.46,-73.78
0.087,-1.371,0.08,-41.58,-35.7,-75.11
0.051,-1.38,0.092,-41.3,-42.21,-78.33
0.041,-1.368,0.102,-42.84,-45.43,-83.51
0.018,-1.35,0.137,-44.31,-50.47,-89.46
-0.004,-1.348,0.173,-44.94,-55.3,-94.15
-0.02,-1.369,0.215,-46.69,-61.95,-98.28
-0.028,-1.413,0.239,-48.3,-71.19,-104.02
-0.021,-1.362,0.176,-60.48,-79.45,-104.02
0.001,-1.299,0.052,-66.99,-79.8,-105.07
0.015,-1.199,0.034,-79.87,-83.3,-106.82
-0.004,-1.136,-0.003,-86.66,-84.21,-107.45
-0.008,-1.066,-0.02,-92.4,-83.65,-107.73
-0.004,-0.977,-0.023,-97.86,-84.49,-106.47
-0.017,-0.905,-0.013,-99.19,-86.73,-106.19
-0.055,-0.874,-0.015,-94.92,-88.69,-106.33
-0.042,-0.854,-0.127,-86.87,-88.41,-109.34
-0.054,-0.818,-0.213,-78.61,-84.42,-114.8
-0.048,-0.813,-0.267,-71.33,-79.87,-125.37
-0.008,-0.779,-0.354,-62.3,-75.95,-133.63
0.056,-0.737,-0.428,-62.37,-73.64,-142.8
0.089,-0.704,-0.485,-63.77,-73.85,-148.89
0.126,-0.631,-0.55,-70.77,-75.95,-152.11
0.12,-0.517,-0.559,-78.26,-77.49,-152.11
0.125,-0.478,-0.521,-93.03,-78.4,-148.75
0.129,-0.474,-0.525,-99.61,-77.77,-145.25
0.113,-0.406,-0.566,-100.87,-70.91,-136.08
0.09,-0.379,-0.6,-91.91,-63.63,-123.55
0.106,-0.345,-0.666,-79.8,-61.25,-111.37
0.122,-0.363,-0.69,-67.48,-60.76,-101.43
0.159,-0.435,-0.767,-51.45,-61.95,-98.84
0.169,-0.437,-0.855,-46.76,-60.13,-97.93
0.161,-0.462,-0.908,-46.34,-55.93,-97.09
0.153,-0.48,-1.105,-47.95,-50.05,-98.77
0.12,-0.416,-1.061,-55.44,-40.39,-99.4
0.116,-0.36,-1.07,-67.27,-27.65,-97.93
0.166,-0.291,-1.039,-73.36,-17.22,-94.29
0.225,-0.195,-0.977,-82.95,-11.41,-88.97
0.29,-0.065,-0.907,-82.53,-9.03,-82.53
0.365,0.001,-0.806,-80.36,-12.25,-77.07
0.432,0.028,-0.758,-73.99,-20.16,-75.46
0.447,0.075,-0.785,-61.95,-31.99,-75.67
0.415,0.121,-0.885,-46.83,-40.11,-76.51
0.224,0.122,-1.138,-12.88,-41.79,-81.83
0.131,0.112,-1.271,4.06,-32.97,-83.51
0.068,0.104,-1.38,12.53,-21.77,-86.31
0.02,0.124,-1.441,16.59,-9.38,-87.78
-0.007,0.155,-1.45,16.87,3.43,-85.4
0.006,0.173,-1.414,15.05,14.14,-79.03
0.046,0.199,-1.374,11.69,22.89,-69.44
0.084,0.225,-1.307,8.61,23.87,-57.05
0.119,0.224,-1.252,7.84,20.79,-42.42
0.146,0.205,-1.216,9.59,16.8,-27.09
0.175,0.16,-1.193,10.92,13.09,-13.58
0.204,0.085,-1.177,12.32,9.31,-1.89
0.231,0.003,-1.166,14.28,7.07,6.51
0.286,-0.08,-1.155,13.51,6.37,10.64
0.331,-0.16,-1.145,10.78,6.51,10.85
0.359,-0.234,-1.127,5.53,5.25,5.6
0.391,-0.292,-1.126,1.54,6.51,2.45
0.388,-0.296,-1.109,-4.9,10.5,0.56
0.391,-0.287,-1.059,-9.03,13.51,4.2
0.401,-0.276,-0.983,-9.03,13.02,11.13
0.418,-0.29,-0.91,-3.64,8.89,19.46
0.438,-0.318,-0.874,3.71,4.62,26.74
0.459,-0.367,-0.861,9.03,1.96,30.94
-0.885,-1.182,0.896,-61.74,50.54,19.67
-1.03,-1.307,1.267,-88.83,43.33,12.18
-1.206,-1.365,1.531,-88.9,41.09,25.48
-1.373,-1.402,1.698,-70.28,42.7,67.2
-1.363,-1.425,1.718,15.89,39.13,175.0
-1.228,-1.515,1.514,72.17,18.62,262.22
-1.033,-1.879,1.105,153.16,-12.88,344.4
-0.718,-2.432,0.603,201.74,-40.6,385.98
-0.365,-3.091,0.016,221.2,-40.67,369.74
0.003,-3.572,-0.456,200.06,2.52,301.07
0.479,-3.822,-0.749,146.51,70.7,204.4
0.982,-3.659,-0.834,89.95,148.61,107.87
1.541,-3.297,-0.614,51.59,162.33,21.14
1.75,-2.909,-0.234,21.63,152.11,-58.31
1.687,-2.458,0.136,-9.87,116.97,-118.79
1.411,-1.925,0.378,-35.63,68.04,-153.23
1.015,-1.417,0.44,-53.83,17.57,-162.05
0.63,-0.978,0.357,-55.37,-26.95,-129.29
0.254,-0.654,0.168,-42.91,-61.53,-112.98
-0.069,-0.575,-0.041,-35.91,-85.05,-90.23
-0.354,-0.549,-0.257,-30.24,-95.27,-73.29
-0.589,-0.526,-0.493,-24.57,-86.73,-59.15
-0.669,-0.532,-0.621,-15.4,-68.18,-46.97
-0.69,-0.557,-0.651,-12.11,-43.12,-36.61
-0.614,-0.572,-0.621,-15.68,-17.08,-30.38
-0.485,-0.57,-0.515,-17.78,17.57,-22.75
-0.309,-0.568,-0.407,-15.75,8.89,-16.1
-0.189,-0.585,-0.344,-9.24,10.85,-10.64
-0.078,-0.586,-0.295,1.12,9.31,-3.99
0.003,-0.602,-0.269,16.31,4.41,5.39
0.043,-0.652,-0.265,26.81,-3.01,13.02
0.07,-0.732,-0.256,32.76,-10.71,17.71
0.093,-0.854,-0.257,39.27,-19.53,18.55
0.131,-0.982,-0.305,43.47,-26.74,19.32
0.143,-1.09,-0.408,45.08,-26.95,18.48
0.15,-1.211,-0.614,42.56,-2.45,11.97
0.179,-1.326,-0.559,38.01,-7.91,-0.42
0.221,-1.4,-0.54,37.45,1.96,-15.54
0.251,-1.467,-0.485,36.68,9.31,-32.62
0.273,-1.486,-0.413,29.4,15.75,-46.69
0.286,-1.469,-0.318,19.95,17.99,-59.22
0.276,-1.421,-0.235,10.29,14.7,-69.3
0.282,-1.322,-0.183,2.52,7.7,-76.3
0.284,-1.258,-0.121,-3.01,-1.61,-77.77
0.265,-1.223,-0.073,-10.64,-11.06,-77.28
0.224,-1.198,-0.058,-17.43,-19.88,-75.46
0.178,-1.19,-0.043,-19.04,-27.37,-72.45
0.126,-1.197,-0.055,-19.6,-27.93,-68.39
0.064,-1.218,-0.047,-21.7,-25.34,-63.98
0.041,-1.246,-0.002,-21.14,-23.73,-59.08
0.053,-1.354,0.021,-21.98,-24.01,-56.28
0.125,-1.395,-0.001,-27.79,-28.14,-56.35
0.172,-1.42,-0.014,-37.1,-43.82,-60.97
0.188,-1.425,-0.042,-51.31,-56.28,-66.5
0.182,-1.38,-0.068,-62.09,-63.7,-68.6
0.149,-1.302,-0.052,-73.85,-68.18,-69.23
0.095,-1.217,-0.038,-86.38,-71.75,-69.79
0.065,-1.15,-0.01,-88.83,-75.6,-68.74
0.025,-1.139,0.002,-88.83,-77.0,-68.81
-0.068,-1.118,-0.081,-85.26,-71.47,-67.2
-0.081,-1.07,-0.161,-83.23,-63.42,-69.79
-0.086,-1.053,-0.195,-76.86,-56.07,-72.38
-0.092,-0.994,-0.258,-70.21,-49.07,-71.75
0.016,-0.912,-0.318,-73.43,-43.75,-71.82
0.07,-0.864,-0.317,-78.54,-45.92,-70.07
0.141,-0.853,-0.288,-86.59,-53.27,-66.01
0.179,-0.811,-0.24,-98.21,-57.96,-61.67
0.179,-0.789,-0.183,-104.72,-63.42,-57.68
0.192,-0.78,-0.145,-102.97,-66.71,-53.97
0.177,-0.81,-0.123,-94.22,-67.27,-55.72
0.13,-0.847,-0.145,-79.17,-67.06,-60.13
0.146,-0.859,-0.234,-60.62,-62.79,-66.71
0.16,-0.833,-0.314,-48.51,-49.84,-76.3
0.141,-0.832,-0.352,-36.96,-38.22,-85.82
0.17,-0.846,-0.305,-32.55,-27.51,-92.61
0.231,-0.873,-0.239,-39.48,-20.72,-91.98
0.353,-0.901,-0.183,-47.95,-27.37,-78.12
0.433,-0.911,-0.159,-53.62,-48.58,-68.11
0.476,-0.881,-0.231,-54.32,-74.48,-64.05
0.443,-0.844,-0.307,-65.59,-99.61,-66.01
0.302,-0.773,-0.542,-72.1,-101.57,-73.22
0.146,-0.689,-0.649,-79.03,-94.5,-85.54
0.037,-0.635,-0.802,-87.08,-83.09,-103.39
0.006,-0.5,-0.97,-89.81,-68.81,-115.64
-0.026,-0.374,-1.088,-89.53,-57.33,-124.81
-0.052,-0.235,-1.206,-83.3,-49.98,-129.22
-0.057,-0.11,-1.278,-75.95,-43.61,-128.1
-0.035,0.0,-1.269,-75.95,-41.37,-122.85
-0.029,0.053,-1.242,-76.51,-41.02,-115.64
0.002,0.113,-1.244,-78.47,-39.76,-113.82
0.07,0.173,-1.249,-81.69,-37.66,-118.16
0.128,0.23,-1.232,-84.0,-35.77,-129.71
0.169,0.279,-1.22,-83.23,-33.95,-149.45
0.128,0.324,-1.363,-81.55,-29.05,-175.7
-0.023,0.374,-1.329,-70.0,-22.54,-202.02
-0.183,0.428,-1.414,-53.83,-11.55,-218.33
-0.308,0.512,-1.493,-30.24,3.43,-213.64
-0.371,0.576,-1.552,-15.19,17.99,-192.08
-0.39,0.628,-1.572,-4.2,27.02,-159.18
-0.349,0.651,-1.508,0.21,25.76,-117.04
-0.247,0.644,-1.405,-0.91,15.89,-71.4
-0.095,0.581,-1.251,-5.18,-2.73,-29.33
0.02,0.464,-1.144,-4.9,-15.47,5.04
0.149,0.325,-1.044,-3.78,-25.69,31.43
0.266,0.159,-0.973,-1.33,-32.55,48.51
0.351,0.0,-0.921,1.96,-36.19,55.3
0.4,-0.2,-0.939,10.36,-35.35,49.35
0.399,-0.404,-1.019,16.59,-26.32,36.96
0.387,-0.501,-1.091,15.4,-14.14,21.49
0.404,-0.578,-1.142,13.93,-4.83,5.74
0.4,-0.578,-1.18,7.7,1.12,-7.14
0.382,-0.528,-1.169,-3.01,4.41,-13.44
0.349,-0.473,-1.091,-12.32,2.45,-12.11
0.33,-0.421,-1.033,-16.1,-1.47,-6.51
0.33,-0.384,-0.982,-14.84,-4.69,-1.75
0.338,-0.372,-0.947,-10.71,-6.02,1.68
0.352,-0.381,-0.927,-3.08,-4.76,2.03
0.359,-0.399,-0.911,0.7,-2.03,-1.26
0.374,-0.422,-0.906,1.47,0.91,-5.74
-1.437,-0.572,0.737,-37.59,52.64,119.28
-1.556,-0.782,1.043,-19.53,46.76,182.7
-1.545,-1.119,1.283,26.53,39.97,243.04
-1.608,-1.487,1.384,88.62,38.78,290.71
-1.575,-1.897,1.411,144.2,41.65,324.31
-1.386,-2.408,1.332,187.39,42.21,341.32
-1.108,-2.874,1.095,213.36,18.13,340.83
-0.695,-3.216,0.773,223.79,18.2,323.82
-0.335,-3.404,0.301,230.65,16.8,293.23
0.05,-3.45,-0.19,224.7,44.8,245.84
0.432,-3.341,-0.639,193.2,103.95,184.66
0.76,-3.139,-0.868,134.05,174.3,112.98
1.112,-2.917,-0.701,83.37,218.96,35.0
1.404,-2.711,-0.266,60.34,221.34,-38.64
1.586,-2.402,0.134,38.08,189.42,-96.53
1.519,-2.075,0.421,25.62,133.28,-144.13
1.268,-1.694,0.513,10.43,69.93,-174.3
0.912,-1.321,0.48,-0.21,10.29,-180.74
0.51,-0.996,0.378,-3.29,-40.53,-151.48
0.149,-0.764,0.178,4.55,-80.01,-115.64
-0.137,-0.732,-0.037,1.82,-104.79,-84.42
-0.381,-0.751,-0.233,-8.19,-115.5,-63.98
-0.544,-0.749,-0.394,-22.05,-106.96,-48.93
-0.627,-0.731,-0.508,-34.51,-89.74,-36.96
-0.583,-0.712,-0.501,-41.93,-71.47,-28.7
-0.523,-0.714,-0.431,-51.94,-57.68,-25.76
-0.442,-0.693,-0.36,-60.62,-52.36,-24.08
-0.307,-0.662,-0.346,-59.01,-53.34,-19.04
-0.228,-0.662,-0.33,-56.21,-54.04,-15.75
-0.158,-0.692,-0.326,-49.0,-56.84,-13.51
-0.104,-0.77,-0.339,-42.35,-61.25,-11.41
-0.067,-0.87,-0.376,-35.21,-64.61,-10.57
-0.063,-0.928,-0.421,-24.36,-66.64,-10.15
-0.044,-0.975,-0.485,-12.11,-62.79,-12.74
-0.063,-1.031,-0.54,-1.33,-51.73,-19.53
-0.022,-1.094,-0.559,6.93,-42.63,-28.21
-0.023,-1.156,-0.56,8.47,-33.25,-40.81
-0.033,-1.189,-0.554,5.81,-25.06,-51.73
-0.008,-1.208,-0.538,4.62,-20.44,-53.83
-0.007,-1.248,-0.526,6.3,-16.59,-56.07
0.012,-1.301,-0.496,1.33,-12.6,-60.9
0.031,-1.342,-0.431,-6.93,-12.6,-69.02
0.046,-1.338,-0.384,-15.47,-13.51,-79.03
0.032,-1.28,-0.358,-24.01,-12.95,-89.18
0.02,-1.179,-0.344,-29.82,-11.9,-94.99
0.023,-1.03,-0.313,-33.25,-13.02,-93.38
0.02,-0.962,-0.271,-31.85,-17.57,-85.26
0.015,-0.935,-0.245,-30.03,-24.36,-72.87
-0.007,-0.944,-0.267,-32.2,-32.62,-60.27
-0.032,-0.969,-0.331,-38.22,-34.79,-49.42
-0.061,-0.987,-0.365,-44.1,-32.83,-40.6
-0.077,-1.017,-0.373,-48.51,-27.86,-36.61
-0.081,-1.077,-0.361,-48.09,-22.12,-41.93
-0.075,-1.085,-0.348,-44.1,-15.89,-49.77
-0.04,-1.093,-0.339,-39.27,-10.15,-58.38
-0.02,-1.103,-0.339,-37.66,-7.56,-65.73
-0.008,-1.084,-0.357,-39.34,-7.28,-69.58
0.013,-1.046,-0.363,-42.21,-10.01,-70.49
0.013,-0.975,-0.353,-50.68,-13.58,-67.62
0.021,-0.936,-0.318,-57.33,-17.71,-62.86
0.034,-0.923,-0.278,-60.06,-23.8,-58.45
0.027,-0.892,-0.285,-59.01,-27.72,-54.67
0.025,-0.885,-0.284,-57.82,-28.91,-52.29
-0.012,-0.926,-0.323,-54.88,-24.78,-50.47
-0.042,-0.948,-0.386,-51.17,-15.47,-45.71
-0.002,-1.022,-0.404,-53.06,-8.47,-48.3
0.037,-1.08,-0.425,-57.19,-8.54,-55.16
0.078,-1.065,-0.468,-65.03,-10.71,-64.54
0.049,-1.031,-0.469,-73.36,-11.2,-73.15
0.024,-1.002,-0.456,-82.18,-6.02,-79.24
-0.014,-0.935,-0.465,-89.46,3.15,-82.95
0.021,-0.872,-0.387,-92.89,8.26,-84.84
0.013,-0.858,-0.317,-87.64,7.7,-88.55
0.034,-0.832,-0.309,-78.4,5.39,-90.09
0.064,-0.793,-0.345,-69.16,3.99,-91.0
0.051,-0.771,-0.425,-61.95,3.5,-90.16
0.066,-0.726,-0.521,-60.34,5.39,-88.48
0.114,-0.666,-0.567,-63.84,5.39,-84.84
0.158,-0.623,-0.53,-68.39,-0.42,-77.7
0.2,-0.624,-0.527,-67.83,-8.96,-70.84
0.219,-0.605,-0.569,-67.9,-14.84,-68.18
0.189,-0.582,-0.567,-69.51,-17.5,-68.6
0.168,-0.638,-0.579,-65.66,-19.46,-72.31
0.142,-0.641,-0.627,-61.67,-17.57,-75.53
0.103,-0.665,-0.662,-58.73,-12.39,-77.56
0.159,-0.647,-0.804,-52.22,-6.51,-77.42
0.192,-0.567,-0.856,-55.3,-2.73,-78.89
0.201,-0.539,-0.83,-63.0,-5.18,-79.17
0.252,-0.49,-0.816,-64.75,-8.54,-73.22
0.268,-0.458,-0.787,-69.51,-13.09,-70.0
0.267,-0.413,-0.775,-74.41,-18.55,-68.32
0.271,-0.349,-0.765,-77.14,-22.96,-67.9
0.264,-0.325,-0.736,-79.1,-24.85,-71.19
0.273,-0.269,-0.784,-77.91,-24.43,-77.35
0.251,-0.195,-0.793,-75.88,-23.17,-83.79
0.207,-0.158,-0.852,-67.62,-21.98,-90.37
0.173,-0.079,-0.923,-60.06,-18.9,-91.07
0.148,-0.031,-0.957,-53.69,-16.17,-86.66
0.139,0.0,-1.015,-46.83,-14.84,-78.05
0.133,0.025,-1.078,-38.43,-15.26,-67.27
0.141,0.01,-1.116,-32.41,-16.17,-58.1
0.145,-0.009,-1.163,-26.04,-14.42,-52.29
0.163,-0.02,-1.19,-23.73,-10.57,-50.61
0.197,-0.045,-1.206,-22.33,-6.37,-53.76
0.223,-0.039,-1.199,-22.05,-3.5,-58.87
0.228,-0.019,-1.186,-21.21,-2.1,-63.7
0.231,0.002,-1.155,-20.23,-1.96,-67.06
0.21,0.016,-1.159,-15.75,-4.13,-67.27
0.179,0.037,-1.162,-11.27,-5.95,-62.65
0.142,0.037,-1.164,-5.95,-9.31,-53.76
0.126,0.022,-1.206,-1.26,-10.22,-37.52
0.095,-0.01,-1.23,2.8,-8.19,-25.76
0.11,-0.053,-1.235,2.66,-5.67,-16.17
0.147,-0.108,-1.215,2.31,-4.55,-9.59
0.197,-0.158,-1.181,0.42,-3.92,-6.16
0.25,-0.203,-1.122,-2.52,-3.43,-5.39
0.297,-0.242,-1.074,-6.79,-3.71,-6.51
0.327,-0.29,-1.037,-9.73,-5.04,-9.45
0.345,-0.318,-1.024,-13.44,-6.51,-15.12
-0.875,-0.971,0.754,-81.9,80.15,-7.42
-0.947,-1.003,0.936,-60.34,81.13,14.42
-1.004,-1.125,1.102,-32.41,87.71,44.17
-1.023,-1.188,1.117,5.46,101.64,86.87
-0.953,-1.264,1.036,42.35,116.13,141.68
-0.761,-1.397,0.921,79.24,122.57,198.31
-0.542,-1.625,0.771,115.29,114.52,245.35
-0.236,-1.943,0.562,142.59,103.11,277.9
0.127,-2.233,0.244,154.91,101.57,287.63
0.496,-2.45,0.004,152.46,113.05,269.57
0.955,-2.633,-0.168,141.12,127.89,227.29
1.4,-2.785,-0.251,124.04,137.97,163.94
1.749,-2.8,-0.237,91.28,139.44,89.32
1.949,-2.643,-0.121,62.44,130.97,9.87
1.901,-2.418,0.068,39.41,106.61,-64.82
1.717,-1.947,0.227,14.7,69.37,-138.74
1.331,-1.573,0.271,-9.1,26.6,-157.57
0.913,-1.201,0.208,-16.31,-15.47,-151.97
0.552,-0.927,0.063,-17.92,-52.71,-124.81
0.205,-0.789,-0.113,-13.65,-86.52,-91.14
-0.103,-0.749,-0.282,-12.46,-110.32,-60.41
-0.386,-0.744,-0.489,-19.88,-116.34,-37.17
-0.497,-0.759,-0.598,-29.89,-104.16,-25.13
-0.512,-0.759,-0.635,-38.78,-84.91,-22.33
-0.454,-0.748,-0.62,-35.84,-62.93,-27.23
-0.391,-0.735,-0.563,-31.64,-34.58,-33.81
-0.225,-0.714,-0.465,-23.45,-19.53,-38.29
-0.132,-0.712,-0.394,-15.33,-12.32,-39.2
-0.038,-0.713,-0.36,-6.37,-12.6,-32.2
0.023,-0.722,-0.352,0.63,-17.01,-23.8
0.061,-0.749,-0.363,4.83,-24.64,-12.39
0.083,-0.799,-0.4,10.43,-31.85,-0.84
0.094,-0.886,-0.446,16.1,-34.58,5.32
0.14,-0.974,-0.487,23.24,-33.88,8.68
0.162,-1.076,-0.498,23.52,-27.93,5.25
0.187,-1.163,-0.488,22.75,-20.3,1.19
0.214,-1.221,-0.488,22.75,-13.44,-2.45
0.23,-1.269,-0.453,21.21,-6.37,-9.73
0.26,-1.313,-0.397,23.03,-1.82,-20.3
0.276,-1.333,-0.32,20.93,0.63,-30.17
0.299,-1.349,-0.237,19.88,-0.91,-35.49
0.312,-1.361,-0.159,12.04,-6.16,-46.13
0.3,-1.337,-0.127,6.23,-13.79,-53.13
0.295,-1.329,-0.122,-2.17,-24.78,-58.24
0.301,-1.3,-0.149,-12.11,-36.96,-59.22
0.141,-1.261,-0.17,-23.31,-50.68,-60.06
0.168,-1.221,-0.2,-34.23,-56.35,-58.38
0.131,-1.17,-0.203,-44.31,-58.03,-55.44
0.106,-1.138,-0.177,-50.05,-57.89,-53.55
0.108,-1.134,-0.132,-52.85,-57.4,-54.53
0.114,-1.137,-0.105,-50.26,-57.61,-58.24
0.108,-1.12,-0.119,-44.38,-57.96,-63.35
0.121,-1.077,-0.174,-40.18,-55.65,-69.23
0.118,-1.035,-0.225,-36.82,-55.02,-74.62
0.104,-1.012,-0.239,-34.44,-57.68,-77.91
0.108,-1.004,-0.266,-36.82,-61.39,-77.7
0.124,-0.956,-0.285,-41.79,-66.5,-74.41
0.104,-0.916,-0.27,-50.05,-71.89,-69.44
0.066,-0.924,-0.225,-54.46,-75.11,-62.72
0.054,-0.926,-0.179,-58.24,-75.88,-56.63
0.048,-0.947,-0.195,-56.91,-76.72,-55.3
0.071,-0.93,-0.262,-48.72,-75.74,-56.35
0.047,-0.932,-0.313,-41.09,-72.17,-60.69
0.049,-0.928,-0.382,-30.03,-65.17,-64.68
0.091,-0.889,-0.44,-23.66,-59.15,-69.37
0.172,-0.857,-0.462,-24.36,-57.96,-74.62
0.208,-0.849,-0.465,-30.03,-62.3,-75.39
0.202,-0.844,-0.464,-39.62,-68.53,-72.87
0.125,-0.834,-0.525,-51.87,-70.56,-67.2
0.055,-0.825,-0.551,-62.23,-64.12,-58.73
-0.014,-0.84,-0.566,-67.69,-55.16,-52.36
0.02,-0.838,-0.538,-69.09,-46.62,-49.28
0.036,-0.864,-0.508,-62.65,-40.39,-50.75
0.085,-0.88,-0.529,-56.21,-35.07,-55.72
0.143,-0.81,-0.56,-52.15,-28.07,-60.76
0.227,-0.754,-0.553,-49.42,-19.74,-62.37
0.308,-0.707,-0.54,-45.57,-20.65,-60.27
0.342,-0.657,-0.464,-45.99,-27.65,-53.62
0.359,-0.682,-0.416,-50.75,-38.57,-45.43
0.373,-0.704,-0.441,-56.14,-51.59,-37.17
0.389,-0.724,-0.497,-61.18,-62.37,-37.24
0.338,-0.748,-0.552,-65.59,-70.35,-41.79
0.136,-0.741,-0.657,-68.18,-71.26,-48.23
0.177,-0.706,-0.774,-70.7,-64.68,-56.42
0.106,-0.701,-0.808,-68.88,-57.19,-63.98
0.067,-0.693,-0.875,-62.37,-52.43,-72.1
0.025,-0.648,-0.944,-52.92,-47.81,-80.22
0.011,-0.554,-0.968,-53.06,-41.72,-83.44
-0.023,-0.503,-1.009,-53.06,-34.58,-82.95
-0.006,-0.448,-1.01,-55.79,-28.07,-80.5
0.034,-0.395,-1.037,-58.94,-22.96,-77.28
0.059,-0.312,-1.042,-65.73,-19.32,-73.36
0.079,-0.246,-1.003,-74.13,-16.87,-67.41
0.116,-0.236,-0.981,-77.98,-16.66,-63.28
0.168,-0.161,-0.999,-79.59,-16.17,-63.7
0.163,-0.108,-0.997,-80.08,-14.91,-66.99
0.139,-0.065,-0.982,-77.7,-14.28,-67.76
0.125,-0.036,-1.014,-60.06,-12.74,-66.01
0.127,-0.009,-1.065,-50.61,-10.08,-64.26
0.1,0.023,-1.123,-42.28,-4.2,-59.57
0.085,0.05,-1.187,-37.52,4.9,-52.15
0.106,0.071,-1.196,-34.23,12.95,-40.11
0.16,0.045,-1.163,-33.88,14.91,-32.06
0.205,0.044,-1.126,-32.69,13.09,-24.85
0.222,0.029,-1.081,-32.48,9.87,-18.83
0.244,0.007,-1.052,-32.2,6.86,-13.44
0.263,-0.014,-1.021,-31.01,4.34,-8.19
0.277,-0.074,-0.999,-27.02,1.05,-5.53
0.29,-0.113,-1.005,-22.19,-2.66,-5.04
0.286,-0.166,-1.016,-18.13,-3.71,-6.02
0.29,-0.211,-1.028,-13.79,-4.34,-7.56
0.296,-0.239,-1.038,-11.06,-3.99,-9.03
0.302,-0.257,-1.028,-9.1,-3.43,-9.73
0.306,-0.285,-1.015,-8.19,-3.36,-7.42
0.301,-0.288,-1.018,-8.96,-1.54,-3.78
0.301,-0.298,-1.003,-11.41,0.28,0.07
0.321,-0.329,-0.961,-11.83,-0.42,3.01
0.364,-0.349,-0.923,-10.78,-4.41,3.99
-0.656,-1.137,0.975,21.0,119.21,77.63
-0.771,-1.243,0.946,43.4,103.39,76.58
-0.716,-1.24,1.075,13.93,73.78,113.82
-0.454,-1.393,1.178,74.83,34.02,140.7
-0.852,-1.511,1.135,71.26,-4.97,144.41
-0.714,-1.607,1.062,92.61,-43.4,163.45
-0.647,-1.734,0.884,132.09,-70.07,192.78
-0.784,-1.931,0.543,165.76,-75.46,222.04
-0.882,-2.181,0.118,189.7,-59.57,240.38
-0.695,-2.448,-0.22,203.7,-28.63,244.16
-0.458,-2.733,-0.459,183.26,19.04,223.79
-0.145,-2.847,-0.615,145.18,73.71,187.25
0.216,-2.874,-0.67,104.44,119.42,144.06
0.64,-2.757,-0.611,68.74,149.87,102.48
0.99,-2.558,-0.428,51.87,157.71,61.53
1.211,-2.276,-0.17,39.13,144.69,24.36
1.349,-2.011,0.022,30.45,117.25,-8.82
1.348,-1.749,0.163,17.36,83.65,-40.25
1.23,-1.497,0.21,8.82,48.09,-67.83
0.992,-1.244,0.177,4.06,13.51,-84.0
0.739,-1.051,0.058,8.33,-15.12,-85.89
0.485,-0.931,-0.082,12.81,-35.63,-80.57
0.223,-0.886,-0.238,15.68,-49.28,-74.62
-0.046,-0.849,-0.475,16.66,-54.6,-67.83
-0.271,-0.807,-0.601,6.79,-47.53,-58.59
-0.378,-0.768,-0.672,-4.13,-34.79,-47.74
-0.423,-0.728,-0.655,-16.8,-19.25,-19.88
-0.372,-0.652,-0.57,-26.88,-7.21,-27.23
-0.27,-0.606,-0.464,-27.37,-0.91,-19.11
-0.183,-0.575,-0.38,-24.78,1.47,-8.4
-0.029,-0.565,-0.29,-19.32,-2.45,4.27
0.049,-0.606,-0.255,-11.48,-9.87,16.03
0.116,-0.679,-0.258,-0.91,-19.04,26.67
0.183,-0.77,-0.307,9.17,-24.85,34.02
0.239,-0.896,-0.341,16.24,-27.51,34.79
0.222,-1.027,-0.366,17.78,-27.16,24.64
0.24,-1.119,-0.416,19.46,-25.41,13.02
0.261,-1.177,-0.464,24.08,-20.93,-2.38
0.246,-1.226,-0.514,24.71,-14.77,-14.21
0.223,-1.25,-0.558,24.85,-6.37,-22.89
0.24,-1.267,-0.549,23.59,1.05,-28.98
0.26,-1.312,-0.472,18.76,4.62,-37.17
0.282,-1.318,-0.43,14.35,5.32,-45.57
0.325,-1.319,-0.362,9.38,3.78,-54.11
0.333,-1.31,-0.292,2.87,-0.56,-61.18
0.348,-1.282,-0.242,-2.66,-6.3,-66.36
0.344,-1.235,-0.183,-5.81,-13.02,-67.34
0.287,-1.197,-0.176,-10.64,-17.15,-63.63
0.24,-1.153,-0.185,-15.54,-19.39,-51.73
0.231,-1.13,-0.16,-15.12,-24.15,-45.64
0.205,-1.157,-0.121,-10.99,-29.4,-43.12
0.156,-1.197,-0.126,-9.87,-31.78,-44.94
0.113,-1.225,-0.172,-7.21,-31.01,-48.51
0.048,-1.27,-0.212,-4.83,-28.7,-53.13
0.045,-1.322,-0.227,-5.6,-25.2,-60.9
0.074,-1.365,-0.226,-12.32,-22.33,-71.26
0.113,-1.348,-0.181,-22.54,-23.73,-86.24
0.156,-1.307,-0.115,-33.53,-28.91,-93.59
0.181,-1.248,-0.054,-39.41,-35.42,-97.23
0.161,-1.191,0.011,-44.1,-43.47,-97.51
0.143,-1.14,0.059,-44.03,-53.55,-93.31
0.122,-1.108,0.085,-45.01,-65.59,-87.57
0.073,-1.097,0.076,-45.43,-73.22,-82.6
0.052,-1.099,0.019,-39.41,-78.61,-77.56
0.024,-1.066,-0.074,-35.35,-81.2,-76.65
-0.001,-1.037,-0.183,-29.68,-81.41,-79.24
-0.014,-0.998,-0.256,-27.02,-81.2,-84.98
-0.024,-0.961,-0.303,-23.66,-82.81,-90.02
-0.01,-0.95,-0.338,-24.5,-86.31,-96.11
0.002,-0.939,-0.376,-28.56,-91.14,-98.35
0.041,-0.9,-0.377,-38.01,-95.55,-99.33
0.039,-0.885,-0.367,-49.28,-99.19,-99.4
0.032,-0.822,-0.35,-59.5,-101.29,-95.9
0.076,-0.759,-0.352,-68.18,-102.34,-92.05
0.081,-0.685,-0.359,-70.91,-98.84,-86.52
0.064,-0.63,-0.366,-71.68,-92.68,-78.05
0.096,-0.586,-0.411,-71.26,-80.92,-71.33
0.152,-0.551,-0.512,-65.52,-68.81,-65.59
0.184,-0.555,-0.526,-60.48,-62.86,-66.01
0.219,-0.576,-0.522,-60.9,-62.65,-66.43
0.22,-0.644,-0.511,-58.94,-66.78,-68.18
0.232,-0.688,-0.555,-56.21,-71.68,-71.47
0.16,-0.675,-0.6,-58.73,-71.4,-74.62
0.12,-0.686,-0.622,-60.62,-67.97,-77.21
0.105,-0.698,-0.668,-59.15,-62.37,-78.82
0.12,-0.626,-0.702,-62.86,-53.97,-75.11
0.222,-0.583,-0.704,-63.49,-48.37,-69.72
0.305,-0.546,-0.64,-66.99,-45.57,-65.1
0.37,-0.537,-0.562,-70.63,-49.77,-53.06
0.436,-0.565,-0.537,-64.05,-57.54,-45.22
0.41,-0.58,-0.567,-60.48,-63.07,-42.07
0.412,-0.616,-0.61,-57.96,-67.76,-48.37
0.402,-0.62,-0.686,-51.24,-69.93,-57.54
0.31,-0.658,-0.77,-43.12,-69.37,-73.43
0.277,-0.676,-0.882,-39.41,-64.19,-94.15
0.249,-0.646,-0.935,-32.06,-55.09,-116.2
0.145,-0.6,-0.991,-31.99,-46.13,-141.33
0.113,-0.456,-1.034,-30.73,-36.54,-150.57
0.067,-0.349,-1.049,-30.52,-26.74,-151.34
0.061,-0.222,-1.072,-32.2,-17.22,-142.73
0.054,-0.101,-1.049,-35.7,-10.71,-127.75
0.119,-0.05,-0.955,-39.48,-14.0,-111.3
0.193,-0.014,-0.969,-28.7,-22.54,-92.96
0.167,0.05,-0.974,-21.07,-30.73,-79.1
0.153,0.028,-0.989,-20.86,-38.5,-69.16
0.162,-0.053,-1.059,-13.51,-43.26,-63.28
0.091,-0.122,-1.164,-2.8,-43.82,-60.13
0.064,-0.193,-1.276,5.67,-40.32,-63.84
-0.013,-0.224,-1.398,13.09,-31.22,-68.88
-0.049,-0.196,-1.47,6.37,-12.25,-67.34
-0.073,-0.184,-1.481,-1.82,7.28,-61.18
-0.037,-0.165,-1.387,-10.01,13.65,-52.64
0.017,-0.154,-1.3,-14.77,15.54,-41.37
0.1,-0.145,-1.236,-18.97,15.33,-29.75
0.166,-0.15,-1.173,-22.96,13.51,-20.3
0.234,-0.162,-1.109,-28.91,10.71,-14.14
0.286,-0.194,-1.062,-29.33,7.14,-11.76
0.314,-0.212,-1.025,-31.57,3.5,-12.95
0.311,-0.229,-1.043,-27.3,3.15,-11.76
-0.985,-1.179,0.656,36.05,114.8,111.72
-1.139,-1.434,0.867,32.9,124.39,86.87
-1.268,-1.554,1.03,36.82,145.46,68.88
-1.406,-1.649,1.139,42.84,176.47,68.39
-1.57,-1.673,1.14,71.54,209.51,119.35
-1.581,-1.729,1.063,104.79,227.71,199.78
-1.39,-1.951,0.979,145.6,215.18,285.95
-1.093,-2.351,0.877,181.09,166.18,360.29
-0.725,-2.909,0.692,199.36,94.99,408.17
-0.241,-3.453,0.449,157.71,51.52,423.29
0.24,-3.61,0.031,104.72,39.2,383.32
0.647,-3.379,-0.192,35.14,64.33,314.09
1.023,-3.05,-0.157,-12.74,120.33,232.05
1.41,-2.846,0.16,-34.16,123.83,145.81
1.664,-2.657,0.379,-44.17,116.27,59.29
1.76,-2.439,0.5,-34.93,93.38,-20.44
1.638,-2.119,0.565,-35.28,56.49,-83.79
1.306,-1.751,0.501,-47.11,15.26,-120.05
0.905,-1.409,0.372,-55.65,-23.8,-125.72
0.477,-1.149,0.147,-62.09,-51.94,-109.2
0.044,-0.971,-0.127,-63.42,-73.01,-77.49
-0.284,-0.843,-0.325,-68.88,-85.33,-61.46
-0.542,-0.777,-0.497,-72.31,-88.41,-57.12
-0.702,-0.681,-0.627,-74.69,-80.43,-55.44
-0.874,-0.588,-0.687,-75.04,-59.36,-57.75
-0.748,-0.505,-0.655,-70.91,-38.15,-57.47
-0.629,-0.44,-0.579,-60.69,-19.53,-52.64
-0.509,-0.396,-0.49,-34.37,-6.58,-40.6
-0.387,-0.386,-0.395,-18.41,1.33,-31.85
-0.262,-0.427,-0.322,-3.99,4.48,-21.98
-0.089,-0.487,-0.248,6.37,2.03,-12.04
0.001,-0.575,-0.223,14.77,-3.64,-4.83
0.069,-0.7,-0.244,20.51,-10.5,2.1
0.148,-0.815,-0.243,29.47,-16.66,7.63
0.158,-0.934,-0.243,29.68,-20.58,6.44
0.139,-1.048,-0.264,27.23,-22.75,0.28
0.136,-1.175,-0.335,26.6,-20.72,-3.57
0.151,-1.265,-0.382,22.89,-15.89,-15.33
0.158,-1.329,-0.408,19.74,-9.94,-32.34
0.176,-1.341,-0.394,19.04,-3.85,-46.76
0.182,-1.367,-0.344,19.25,0.84,-62.37
0.187,-1.36,-0.303,21.98,5.46,-75.67
0.174,-1.334,-0.249,23.8,6.86,-86.31
0.168,-1.335,-0.219,23.8,8.12,-93.8
0.109,-1.317,-0.209,21.07,10.71,-96.04
0.102,-1.308,-0.148,14.07,9.52,-100.59
0.142,-1.273,-0.064,13.02,1.68,-101.78
0.137,-1.263,0.015,11.62,-7.91,-103.18
0.119,-1.237,0.057,10.15,-17.5,-103.46
0.109,-1.211,0.054,8.33,-24.5,-100.94
0.037,-1.197,0.025,2.52,-30.38,-96.6
0.02,-1.181,0.017,-2.17,-41.79,-90.02
0.019,-1.19,0.017,-6.58,-51.66,-85.75
-0.02,-1.218,0.005,-11.48,-59.43,-82.95
-0.022,-1.243,0.012,-17.43,-65.8,-82.46
-0.013,-1.27,0.029,-22.05,-71.33,-85.33
-0.03,-1.298,0.039,-32.06,-74.9,-88.9
-0.042,-1.282,0.01,-40.53,-75.53,-90.09
-0.081,-1.252,-0.026,-49.63,-72.87,-90.44
-0.08,-1.203,-0.018,-57.89,-73.01,-91.21
-0.055,-1.158,0.019,-67.13,-74.97,-92.89
-0.043,-1.139,0.049,-74.48,-78.05,-95.06
0.033,-1.164,0.066,-85.68,-83.72,-102.06
0.117,-1.128,0.064,-90.58,-90.44,-110.39
0.118,-1.112,0.057,-94.22,-95.13,-123.76
0.061,-1.078,-0.005,-96.74,-94.57,-133.63
0.02,-0.983,-0.141,-100.87,-87.92,-137.34
0.0,-0.873,-0.203,-99.89,-85.33,-136.64
0.032,-0.754,-0.273,-101.71,-84.35,-133.84
0.027,-0.625,-0.315,-99.75,-87.43,-130.55
-0.017,-0.546,-0.363,-97.86,-90.58,-123.69
-0.032,-0.522,-0.409,-97.79,-90.37,-116.55
-0.02,-0.53,-0.5,-91.84,-88.2,-111.51
-0.023,-0.552,-0.557,-88.41,-86.66,-111.23
0.009,-0.58,-0.636,-82.81,-84.42,-114.03
0.062,-0.549,-0.704,-76.93,-80.78,-120.68
0.104,-0.501,-0.747,-75.88,-77.14,-124.53
0.102,-0.473,-0.773,-74.2,-75.18,-125.72
0.108,-0.417,-0.796,-70.77,-73.08,-123.13
0.105,-0.364,-0.842,-64.75,-70.49,-120.4
0.085,-0.325,-0.894,-59.78,-66.99,-118.3
0.059,-0.31,-0.914,-57.61,-62.44,-114.52
0.044,-0.351,-0.965,-44.59,-57.75,-114.17
0.008,-0.376,-1.041,-36.89,-50.68,-115.57
-0.024,-0.384,-1.103,-33.18,-41.23,-116.41
-0.013,-0.355,-1.184,-33.04,-27.65,-116.13
0.054,-0.303,-1.19,-33.04,-20.65,-113.4
0.091,-0.238,-1.14,-41.02,-17.64,-105.42
0.145,-0.203,-1.044,-47.67,-18.06,-94.01
0.186,-0.161,-0.99,-51.31,-19.74,-83.02
0.217,-0.154,-0.965,-44.31,-20.86,-76.37
0.255,-0.153,-0.929,-46.06,-22.82,-73.08
0.296,-0.193,-0.979,-39.13,-25.55,-73.92
0.268,-0.203,-1.063,-32.62,-27.65,-76.23
0.261,-0.223,-1.11,-25.83,-27.58,-81.9
0.202,-0.243,-1.151,-19.46,-26.32,-87.01
0.18,-0.253,-1.173,-15.47,-23.8,-87.78
0.154,-0.248,-1.209,-13.79,-19.53,-85.75
0.124,-0.22,-1.238,-14.56,-11.97,-79.94
0.135,-0.183,-1.221,-18.41,-1.75,-70.14
0.187,-0.168,-1.168,-21.77,1.54,-60.06
0.257,-0.144,-1.115,-25.76,1.54,-50.26
0.314,-0.136,-1.045,-30.38,-1.61,-42.84
0.36,-0.137,-1.001,-35.56,-5.95,-37.8
0.388,-0.126,-0.969,-35.91,-10.22,-36.61
0.392,-0.14,-0.944,-33.74,-14.56,-37.87
0.391,-0.145,-0.946,-31.36,-18.97,-41.72
0.358,-0.161,-0.983,-27.58,-20.51,-46.27
0.308,-0.166,-1.015,-24.5,-19.53,-48.09
0.278,-0.181,-1.025,-21.77,-18.06,-46.34
0.27,-0.191,-1.041,-20.02,-16.17,-39.62
0.258,-0.182,-1.051,-20.51,-13.58,-31.57
0.256,-0.192,-1.039,-22.19,-11.83,-22.75
0.306,-0.228,-0.996,-23.31,-12.6,-16.1
0.353,-0.247,-0.965,-25.06,-14.77,-13.16
0.391,-0.256,-0.94,-27.79,-15.4,-13.44
0.4,-0.258,-0.932,-32.34,-13.44,-16.94
0.401,-0.222,-0.92,-36.33,-10.15,-20.3
0.404,-0.21,-0.897,-34.86,-8.47,-23.94
-0.923,-1.1,0.596,-161.56,86.03,-150.5
-1.067,-0.956,0.953,-186.76,54.25,-92.75
-1.292,-0.715,1.138,-194.6,20.37,6.09
-1.243,-0.505,1.245,-159.6,-41.65,137.2
-1.225,-0.559,1.225,-54.25,-101.78,266.84
-1.4,-0.627,0.876,50.05,-130.2,387.66
-1.328,-1.239,0.574,195.79,-140.98,476.91
-1.207,-2.451,0.344,339.92,-121.31,466.97
-1.114,-3.412,-0.097,372.96,-55.37,417.62
-0.826,-4.091,-0.656,306.53,70.21,339.36
-0.139,-4.51,-1.098,218.96,203.84,231.07
0.791,-4.547,-1.399,150.36,331.94,137.48
1.825,-4.037,-1.069,115.64,356.37,57.89
2.495,-3.52,-0.506,78.12,325.15,-28.28
2.701,-2.709,0.269,56.7,254.94,-89.25
2.524,-2.181,0.78,10.57,164.29,-141.4
1.973,-1.525,1.048,-35.98,54.46,-164.08
1.261,-0.883,0.75,-48.93,-41.44,-151.9
0.635,-0.191,0.272,-37.03,-104.44,-82.04
0.06,-0.051,-0.2,-27.93,-141.4,-22.75
-0.385,-0.141,-0.537,-20.02,-156.73,19.25
-0.764,-0.341,-0.793,-20.09,-133.63,41.86
-1.007,-0.486,-1.048,-22.89,-84.0,48.58
-0.937,-0.579,-1.097,-25.48,-20.44,38.99
-0.761,-0.649,-0.961,-21.49,37.1,13.65
-0.502,-0.666,-0.792,10.01,73.22,-14.42
-0.24,-0.657,-0.589,18.34,98.63,-23.66
-0.034,-0.681,-0.373,22.75,106.54,-22.19
0.142,-0.671,-0.191,19.81,89.53,-8.96
0.279,-0.654,-0.095,15.26,55.23,12.11
0.383,-0.662,-0.07,8.47,15.33,33.74
0.442,-0.703,-0.126,6.23,-20.72,49.21
0.439,-0.759,-0.264,7.0,-44.31,54.88
0.397,-0.84,-0.375,11.2,-56.14,48.93
0.348,-0.915,-0.485,18.69,-53.27,35.63
0.317,-0.972,-0.574,25.76,-41.93,21.35
0.286,-1.026,-0.641,25.13,-24.22,7.0
0.295,-1.048,-0.665,22.96,-9.24,-1.4
0.32,-1.06,-0.647,26.39,1.4,-9.52
0.313,-1.054,-0.619,29.05,7.14,-12.74
0.333,-1.024,-0.568,29.89,9.45,-13.02
0.331,-0.998,-0.522,26.25,10.36,-14.14
0.328,-0.969,-0.495,22.33,8.4,-12.46
0.329,-0.949,-0.47,17.85,5.18,-14.0
0.319,-0.916,-0.453,17.15,-0.35,-12.95
0.325,-0.905,-0.446,15.89,-4.83,-10.57
0.295,-0.92,-0.467,13.23,-6.51,-9.94
0.268,-0.896,-0.483,9.73,-9.03,-6.16
0.256,-0.862,-0.515,11.2,-11.41,-1.05
0.261,-0.87,-0.527,15.96,-13.86,2.17
0.267,-0.909,-0.498,17.01,-11.76,4.2
0.277,-0.971,-0.489,20.02,-13.86,1.82
0.307,-1.125,-0.454,18.48,-16.24,-3.57
0.35,-1.211,-0.47,14.42,-19.46,-11.83
0.323,-1.242,-0.527,4.69,-19.39,-18.9
0.313,-1.264,-0.57,-6.44,-0.14,-26.95
0.314,-1.246,-0.537,-10.64,-17.08,-33.6
0.305,-1.22,-0.459,-13.23,-16.45,-42.84
0.314,-1.206,-0.403,-12.32,-14.28,-52.64
0.335,-1.199,-0.335,-10.71,-10.71,-66.71
0.349,-1.179,-0.265,-7.07,-9.03,-75.6
0.332,-1.149,-0.236,-7.56,-8.75,-79.73
0.308,-1.11,-0.223,-7.7,-13.65,-80.99
0.308,-1.061,-0.205,-8.12,-25.97,-79.03
0.268,-1.047,-0.156,-9.24,-36.19,-73.36
0.222,-1.051,-0.144,-14.56,-44.73,-66.5
0.197,-1.045,-0.144,-21.42,-50.61,-59.57
0.183,-1.078,-0.122,-25.83,-56.98,-54.11
0.178,-1.138,-0.148,-29.19,-60.9,-53.13
0.151,-1.157,-0.198,-31.64,-62.86,-56.42
0.142,-1.168,-0.227,-33.32,-64.26,-62.23
0.106,-1.188,-0.25,-34.79,-61.74,-70.49
0.08,-1.182,-0.243,-34.86,-59.43,-76.44
0.066,-1.163,-0.223,-37.17,-58.17,-82.32
0.079,-1.144,-0.186,-37.8,-59.5,-87.78
0.08,-1.121,-0.137,-41.58,-62.37,-91.7
0.104,-1.068,-0.118,-42.84,-66.57,-92.68
0.199,-0.964,-0.172,-45.22,-73.5,-91.56
0.224,-0.851,-0.243,-47.32,-79.59,-91.7
0.21,-0.769,-0.281,-50.12,-86.03,-93.94
0.239,-0.716,-0.321,-55.51,-92.96,-94.08
0.266,-0.646,-0.373,-61.18,-100.38,-92.05
0.256,-0.618,-0.384,-63.14,-109.34,-89.18
0.229,-0.602,-0.398,-63.56,-118.51,-86.66
0.2,-0.575,-0.485,-61.53,-125.93,-87.78
0.115,-0.563,-0.571,-53.55,-123.27,-88.06
0.002,-0.538,-0.73,-46.69,-109.06,-80.78
-0.034,-0.48,-0.854,-51.24,-85.26,-69.93
-0.014,-0.442,-0.959,-62.93,-65.66,-61.74
0.05,-0.414,-0.981,-61.81,-51.87,-53.48
0.133,-0.377,-0.935,-63.91,-44.94,-45.92
0.182,-0.411,-0.848,-60.13,-46.27,-41.23
0.226,-0.399,-0.819,-57.05,-49.0,-37.45
0.231,-0.436,-0.789,-54.88,-51.94,-33.74
0.26,-0.515,-0.825,-50.12,-53.34,-35.84
0.268,-0.491,-0.9,-49.07,-51.52,-43.19
0.224,-0.484,-0.955,-47.39,-46.48,-53.27
0.189,-0.487,-1.116,-39.13,-38.01,-62.65
0.152,-0.427,-1.061,-33.46,-28.14,-68.25
0.138,-0.375,-1.051,-34.02,-19.18,-68.74
0.204,-0.363,-1.068,-34.16,-14.28,-68.6
0.209,-0.305,-1.075,-28.35,-11.62,-62.51
0.201,-0.223,-1.045,-29.47,-11.69,-54.25
0.242,-0.261,-1.015,-32.41,-13.72,-49.98
0.232,-0.268,-0.998,-32.06,-17.99,-43.96
0.262,-0.271,-1.007,-32.06,-21.35,-42.49
0.206,-0.29,-1.036,-35.98,-20.3,-44.52
0.181,-0.306,-1.061,-33.04,-16.73,-47.11
0.139,-0.289,-1.076,-31.85,-11.27,-48.37
0.147,-0.262,-1.085,-30.59,-4.97,-49.07
0.125,-0.262,-1.073,-28.7,0.14,-47.39
0.148,-0.231,-1.041,-26.81,4.27,-44.24
0.172,-0.225,-1.01,-25.83,4.62,-41.79
0.197,-0.203,-0.976,-24.92,4.27,-37.8
0.212,-0.201,-0.944,-22.54,3.15,-32.9
0.224,-0.197,-0.931,-19.74,3.01,-27.09
0.217,-0.193,-0.914,-15.26,4.34,-20.37
0.223,-0.234,-0.895,-10.5,5.11,-13.37
0.259,-0.316,-0.886,-4.55,3.85,-12.11
